File: 23년여름방학_화학공학랩실/분석자료파일/202030706_XRD_NiO/NiO_500C_v1_Theta_2-Theta.asc
*TYPE		=  Raw
*CLASS		=  ASCII CLASS
*SAMPLE		=  NiO_500C_v1
*COMMENT	=
*FNAME		=  NiO_500C_v1_Theta_2-Theta.asc
*DATE		=  04-Jul-23 17:12

*GROUP_COUNT	=  1
*GONIO		=  MiniFlex 300/600, 150
*ATTACHMENT	=  ASC-6
*ASC		=  0, 0, 0.000000, 0.000000
*FILTER		=  None
*C_MONOCHRO	=  None, 0.000000
*SLIT_NAME	=  0, IHS
*SLIT_NAME	=  1, DS
*SLIT_NAME	=  2, SS
*SLIT_NAME	=  3, RS
*COUNTER	=  D/teX Ultra, 0
*POS_FORMAT	=  0
*SCAN_AXIS	=  2theta/theta
*MEAS_MODE	=  Continuous Scanning
*TARGET		=  29
*XRAY_CHAR	=  K-ALPHA
*WAVE_LENGTH1	=  1.54059
*WAVE_LENGTH2	=  1.54441
*THICKNESS	=  0, 0.000000
*MU		=  0, 0.000000
*SCAN_MODE	=  2theta/theta
*SPEED_DIM	=  sec./step
*XUNIT		=  deg.
*YUNIT		=  cps
*SCALE_MODE	=  1
*REP_COUNT	=  0
*SE_COUNT	=  0
*STD_MATERIAL	=  Unknown, Unknown, 0.000000, 0.000000, 0.000000, 0.000000, 0.000000, 0.000000
*LATT_CONS	=  0, Unknown, Unknown, 0.000000, 0.000000, 0.000000, 0.000000, 0.000000, 0.000000
*SEC_COUNT	=  1
*TSPEC_SIZE	=  0
*EXTRA_SIZE	=  0
*MEMO		=

*BEGIN
*GROUP		=  0
*START		=  20
*STOP		=  80
*STEP		=  0.02
*OFFSET		=  0.000000
*SPEED		=  0.8
*SLIT_SPEC	=  0, 10.0mm, 10, 0.000000
*SLIT_SPEC	=  1, 1.250deg, 1.25, 0.000000
*SLIT_SPEC	=  2, 13.0mm(Open), 13, 0.000000
*SLIT_SPEC	=  3, 13.0mm, 13, 0.000000
*KV		=  40
*MA		=  15
*LOW		=  0.000000
*HIGH		=  0.000000
*CTEMPER	=  0, 0.000000
*CTEMPER	=  1, 0.000000
*CTEMPER	=  2, 0.000000
*PAREX		=  0, 0.000000
*PAREX		=  1, 0.000000
*PAREX		=  2, 0.000000
*PAREX		=  3, 0.000000
*PAREX		=  4, 0.000000
*PAREX		=  5, 0.000000
*PAREX		=  6, 0.000000
*PAREX		=  7, 0.000000
*PAREX		=  8, 0.000000
*PAREX		=  9, 0.000000
*PAREX		=  10, 0.000000
*PAREX		=  11, 0.000000
*PAREX		=  12, 0.000000
*PAREX		=  13, 0.000000
*PAREX		=  14, 0.000000
*PAREX		=  15, 0.000000
*FULL_SCALE	=  87951
*INDEX		=  0, 0, 0
*COUNT		=  3001
5788, 5949, 5870, 5932
5895, 5943, 5939, 6016
6034, 5960, 5942, 5999
6026, 6114, 6010, 6028
6063, 6079, 5985, 5957
5869, 5923, 5895, 5977
6086, 6061, 5959, 5995
5953, 5996, 5997, 5915
5995, 5997, 5969, 5972
5942, 5980, 6117, 5963
6003, 6033, 6014, 6079
6016, 5965, 6026, 6008
6026, 6026, 6109, 6080
6159, 6141, 5921, 6006
6068, 5978, 6162, 6131
6032, 5968, 6060, 6142
6055, 6048, 6017, 6108
6119, 6293, 6096, 6060
6051, 6033, 6157, 6144
6182, 6091, 6143, 6038
5973, 6201, 6158, 6118
6129, 6030, 6108, 6166
6106, 6065, 6088, 6179
6169, 6168, 6141, 6118
6150, 6174, 6164, 6372
6247, 6214, 6140, 6151
6137, 6143, 6146, 6240
6316, 6247, 6061, 6213
6310, 6177, 6138, 6146
6051, 6150, 6288, 6139
6189, 6171, 6166, 6219
6158, 6369, 6202, 6166
6057, 6226, 6180, 6336
6212, 6252, 6219, 6117
6240, 6246, 6224, 6267
6309, 6227, 6221, 6214
6130, 6291, 6128, 6216
6282, 6245, 6178, 6119
6278, 6233, 6319, 6310
6283, 6222, 6210, 6173
6064, 6156, 6179, 6221
6190, 6300, 6254, 6212
6197, 6062, 6254, 6264
6285, 6283, 6281, 6249
6292, 6145, 6326, 6260
6259, 6369, 6261, 6382
6189, 6355, 6280, 6263
6336, 6268, 6322, 6144
6244, 6157, 6157, 6258
6201, 6189, 6236, 6263
6172, 6203, 6209, 6257
6264, 6192, 6260, 6197
6234, 6367, 6189, 6214
6289, 6317, 6313, 6235
6381, 6232, 6359, 6323
6254, 6208, 6377, 6270
6245, 6164, 6294, 6252
6353, 6382, 6322, 6187
6265, 6344, 6147, 6229
6194, 6249, 6242, 6316
6319, 6288, 6251, 6433
6358, 6323, 6277, 6239
6270, 6322, 6222, 6207
6389, 6270, 6285, 6288
6375, 6293, 6229, 6286
6374, 6406, 6421, 6264
6219, 6406, 6448, 6237
6417, 6226, 6223, 6311
6418, 6382, 6437, 6359
6229, 6241, 6195, 6315
6199, 6297, 6258, 6346
6213, 6259, 6266, 6201
6294, 6260, 6208, 6326
6365, 6322, 6243, 6255
6338, 6256, 6277, 6334
6348, 6339, 6333, 6449
6328, 6396, 6477, 6188
6234, 6293, 6248, 6390
6397, 6227, 6252, 6194
6313, 6214, 6332, 6345
6344, 6369, 6330, 6297
6274, 6194, 6208, 6391
6198, 6361, 6269, 6239
6322, 6179, 6251, 6332
6388, 6344, 6328, 6430
6258, 6251, 6191, 6323
6240, 6278, 6222, 6162
6235, 6251, 6417, 6363
6450, 6431, 6314, 6226
6244, 6267, 6294, 6327
6432, 6317, 6306, 6314
6354, 6342, 6345, 6363
6241, 6181, 6203, 6339
6341, 6316, 6300, 6398
6317, 6367, 6334, 6246
6300, 6309, 6359, 6216
6346, 6418, 6310, 6304
6358, 6320, 6314, 6157
6245, 6373, 6361, 6222
6329, 6285, 6379, 6363
6372, 6348, 6334, 6264
6298, 6392, 6399, 6217
6252, 6302, 6296, 6268
6281, 6286, 6414, 6471
6286, 6355, 6424, 6252
6273, 6255, 6363, 6413
6309, 6193, 6373, 6396
6298, 6315, 6331, 6406
6291, 6345, 6361, 6214
6294, 6360, 6314, 6340
6199, 6261, 6333, 6381
6345, 6296, 6297, 6407
6337, 6301, 6327, 6443
6410, 6247, 6336, 6295
6327, 6215, 6302, 6308
6318, 6272, 6244, 6325
6330, 6378, 6468, 6382
6375, 6370, 6381, 6348
6267, 6362, 6288, 6401
6228, 6318, 6293, 6398
6320, 6346, 6295, 6358
6331, 6262, 6406, 6382
6334, 6250, 6319, 6434
6443, 6282, 6267, 6212
6196, 6333, 6262, 6344
6400, 6391, 6285, 6272
6279, 6219, 6188, 6279
6336, 6339, 6296, 6368
6375, 6394, 6304, 6234
6379, 6452, 6442, 6323
6373, 6174, 6312, 6275
6322, 6264, 6350, 6188
6211, 6364, 6238, 6274
6337, 6282, 6319, 6300
6284, 6390, 6372, 6243
6315, 6328, 6332, 6381
6418, 6369, 6398, 6374
6277, 6188, 6376, 6482
6450, 6409, 6352, 6190
6450, 6468, 6387, 6269
6378, 6350, 6238, 6445
6294, 6346, 6223, 6200
6323, 6302, 6386, 6416
6309, 6343, 6384, 6395
6336, 6275, 6387, 6255
6227, 6365, 6499, 6358
6438, 6381, 6312, 6314
6257, 6365, 6298, 6245
6350, 6364, 6362, 6299
6411, 6314, 6296, 6298
6350, 6379, 6352, 6344
6227, 6314, 6390, 6349
6260, 6345, 6464, 6465
6292, 6336, 6297, 6324
6428, 6444, 6315, 6446
6443, 6354, 6262, 6386
6436, 6347, 6345, 6264
6365, 6406, 6337, 6238
6314, 6333, 6301, 6328
6332, 6414, 6493, 6373
6395, 6351, 6278, 6239
6269, 6426, 6516, 6387
6299, 6401, 6388, 6252
6351, 6257, 6409, 6366
6417, 6327, 6309, 6261
6230, 6286, 6378, 6418
6527, 6316, 6390, 6368
6412, 6431, 6479, 6455
6476, 6471, 6403, 6478
6410, 6296, 6398, 6360
6395, 6291, 6405, 6352
6463, 6456, 6367, 6367
6384, 6390, 6331, 6497
6396, 6476, 6334, 6447
6400, 6405, 6277, 6396
6390, 6418, 6420, 6468
6427, 6493, 6293, 6245
6240, 6303, 6372, 6464
6376, 6441, 6457, 6377
6322, 6409, 6299, 6363
6367, 6488, 6402, 6371
6303, 6383, 6333, 6466
6431, 6398, 6416, 6358
6310, 6503, 6428, 6345
6300, 6313, 6505, 6387
6388, 6561, 6447, 6605
6494, 6448, 6365, 6327
6423, 6420, 6455, 6464
6500, 6526, 6405, 6548
6557, 6473, 6472, 6604
6523, 6560, 6470, 6563
6612, 6464, 6541, 6556
6582, 6564, 6513, 6419
6577, 6676, 6472, 6592
6582, 6523, 6589, 6573
6576, 6404, 6591, 6703
6590, 6471, 6532, 6641
6614, 6703, 6688, 6616
6745, 6617, 6797, 6922
6737, 6916, 6746, 6737
6801, 6878, 6930, 6857
6888, 6976, 7026, 6935
6969, 6950, 6921, 7133
7177, 7272, 7113, 7049
7098, 7360, 7285, 7360
7483, 7483, 7557, 7574
7625, 7680, 7734, 7934
7881, 8125, 8414, 8290
8605, 8711, 8802, 9022
9443, 9591, 9737, 10185
10343, 10730, 10996, 11378
11902, 12532, 13157, 13869
14886, 15686, 16494, 17760
19207, 20339, 22566, 24631
26485, 28764, 31315, 33984
36126, 38458, 39670, 40247
39961, 38952, 37043, 35391
32949, 30400, 27657, 25407
23111, 20918, 19047, 17303
16180, 14704, 13805, 13175
12395, 11604, 10990, 10555
10167, 9654, 9350, 9154
8835, 8607, 8407, 8253
8038, 8120, 7906, 7683
7708, 7594, 7637, 7399
7432, 7249, 7304, 7257
7278, 7093, 7133, 7133
6990, 7299, 7074, 6989
6972, 6852, 7070, 6864
6858, 6804, 6905, 6775
6793, 6729, 6667, 6724
6832, 6665, 6704, 6604
6545, 6583, 6801, 6679
6633, 6690, 6634, 6700
6751, 6728, 6752, 6709
6691, 6705, 6878, 6711
6471, 6444, 6518, 6546
6560, 6499, 6561, 6587
6491, 6577, 6442, 6577
6538, 6670, 6588, 6577
6512, 6509, 6445, 6559
6635, 6550, 6405, 6484
6385, 6581, 6608, 6677
6633, 6509, 6361, 6565
6450, 6449, 6465, 6462
6527, 6465, 6438, 6514
6421, 6448, 6410, 6398
6478, 6481, 6500, 6612
6400, 6528, 6509, 6502
6454, 6475, 6435, 6534
6552, 6331, 6360, 6282
6425, 6543, 6420, 6423
6521, 6330, 6516, 6424
6490, 6533, 6448, 6548
6481, 6581, 6563, 6489
6440, 6407, 6524, 6466
6363, 6568, 6530, 6512
6493, 6531, 6431, 6530
6481, 6447, 6383, 6442
6557, 6595, 6537, 6513
6594, 6501, 6487, 6466
6481, 6593, 6532, 6521
6370, 6575, 6470, 6550
6563, 6490, 6483, 6511
6463, 6438, 6706, 6523
6516, 6558, 6747, 6605
6489, 6669, 6481, 6610
6482, 6566, 6598, 6669
6547, 6700, 6756, 6631
6670, 6769, 6719, 6818
6790, 6786, 6667, 6714
6856, 6949, 6810, 6843
6786, 6835, 6877, 6950
7013, 7009, 7042, 6971
6970, 7101, 7104, 7172
7197, 7144, 7275, 7280
7220, 7206, 7294, 7339
7369, 7282, 7276, 7506
7420, 7494, 7595, 7562
7759, 7758, 7863, 7777
7946, 8094, 8042, 8162
8112, 8427, 8501, 8640
8720, 8882, 9154, 9161
9399, 9566, 9830, 10022
10327, 10640, 11060, 11351
11988, 12436, 13218, 13541
13956, 14812, 15781, 16532
17444, 18695, 19979, 21703
23143, 24990, 27303, 29506
32377, 35554, 39015, 42637
46119, 50200, 54094, 56456
58236, 58634, 57913, 56592
53865, 51124, 47652, 44474
40671, 36998, 33192, 30352
27469, 25060, 22912, 21156
19160, 17711, 16314, 15475
14722, 14026, 12937, 12368
11910, 11397, 11019, 10615
10283, 10032, 9747, 9481
9164, 9072, 8893, 8760
8669, 8500, 8501, 8292
8163, 8089, 8005, 7963
7931, 7718, 7627, 7715
7448, 7572, 7431, 7439
7328, 7230, 7325, 7218
7165, 7222, 7143, 7124
7208, 7194, 7130, 7053
6922, 7079, 7120, 6973
7078, 6873, 7004, 6907
6936, 6910, 6832, 6850
6825, 6873, 6821, 6800
6831, 6890, 6745, 6720
6806, 6764, 6654, 6719
6698, 6692, 6822, 6673
6729, 6677, 6705, 6721
6579, 6754, 6597, 6711
6628, 6644, 6608, 6744
6766, 6458, 6688, 6615
6506, 6493, 6555, 6547
6672, 6635, 6563, 6407
6623, 6589, 6655, 6522
6538, 6600, 6629, 6590
6543, 6416, 6554, 6538
6469, 6553, 6390, 6528
6450, 6474, 6479, 6472
6562, 6499, 6550, 6500
6502, 6527, 6594, 6441
6558, 6406, 6417, 6492
6497, 6536, 6615, 6393
6396, 6456, 6423, 6523
6419, 6438, 6536, 6498
6461, 6496, 6376, 6465
6495, 6508, 6441, 6373
6453, 6331, 6413, 6434
6496, 6477, 6617, 6462
6444, 6432, 6364, 6493
6434, 6481, 6373, 6433
6413, 6488, 6405, 6419
6205, 6250, 6322, 6445
6385, 6418, 6438, 6413
6420, 6418, 6363, 6354
6285, 6406, 6399, 6409
6286, 6301, 6376, 6433
6446, 6318, 6424, 6472
6460, 6461, 6269, 6425
6283, 6403, 6393, 6412
6340, 6327, 6323, 6285
6465, 6306, 6429, 6340
6280, 6251, 6416, 6249
6150, 6449, 6291, 6253
6266, 6404, 6369, 6390
6271, 6395, 6380, 6420
6266, 6347, 6402, 6277
6300, 6277, 6257, 6296
6330, 6272, 6427, 6291
6365, 6334, 6265, 6285
6254, 6251, 6276, 6327
6503, 6257, 6331, 6199
6264, 6407, 6344, 6214
6292, 6049, 6222, 6350
6222, 6365, 6258, 6197
6159, 6263, 6267, 6344
6217, 6227, 6307, 6252
6318, 6308, 6285, 6285
6226, 6386, 6371, 6340
6149, 6101, 6295, 6267
6300, 6249, 6326, 6305
6311, 6265, 6309, 6307
6321, 6111, 6232, 6278
6357, 6280, 6262, 6262
6235, 6441, 6301, 6280
6305, 6442, 6187, 6231
6312, 6336, 6263, 6146
6292, 6163, 6241, 6242
6248, 6313, 6423, 6191
6285, 6284, 6380, 6293
6352, 6228, 6205, 6225
6258, 6299, 6156, 6259
6185, 6255, 6342, 6315
6392, 6339, 6260, 6251
6257, 6400, 6228, 6279
6253, 6262, 6097, 6266
6106, 6155, 6344, 6276
6342, 6247, 6314, 6246
6336, 6269, 6242, 6312
6217, 6283, 6271, 6252
6256, 6343, 6236, 6282
6314, 6313, 6138, 6152
6208, 6161, 6204, 6227
6255, 6236, 6358, 6293
6298, 6215, 6240, 6338
6279, 6273, 6254, 6206
6232, 6145, 6216, 6249
6333, 6253, 6053, 6211
6366, 6248, 6278, 6367
6284, 6328, 6241, 6140
6266, 6251, 6207, 6260
6132, 6066, 6282, 6262
6072, 6109, 6149, 6204
6113, 6270, 6178, 6161
6219, 6337, 6332, 6234
6271, 6190, 6307, 6293
6326, 6226, 6120, 6168
6072, 6175, 6242, 6051
6163, 6273, 6351, 6174
6238, 6231, 6251, 6196
6046, 6097, 6114, 6146
6180, 6112, 6276, 6323
6287, 6302, 6348, 6170
6197, 6287, 6219, 6250
6152, 6241, 6238, 6256
6181, 6098, 6274, 6131
6206, 6326, 6159, 6220
6307, 6241, 6116, 6165
6322, 6038, 6129, 6208
6182, 6173, 6199, 6188
6291, 6235, 6222, 6220
6259, 6274, 6070, 6204
6224, 6026, 6204, 6208
6209, 6200, 6251, 6173
6107, 6188, 6344, 6267
6136, 6119, 6130, 6031
6179, 6075, 6285, 6254
6213, 6282, 6239, 6234
6170, 6214, 6229, 6231
6218, 6247, 6192, 6256
6237, 6173, 6130, 6303
6163, 6167, 6154, 6137
6225, 6216, 6207, 6328
6171, 6226, 6267, 6228
6164, 6170, 6210, 6288
6271, 6119, 6205, 6228
6186, 6140, 6108, 6179
6160, 6189, 6145, 6289
6369, 6077, 6189, 6185
6328, 6104, 6167, 6238
6184, 6183, 6110, 6262
6200, 6364, 6114, 6096
6188, 6181, 6114, 6165
6175, 6146, 6144, 6183
6186, 6225, 6258, 6280
6240, 6174, 6225, 6139
6257, 6201, 6110, 6059
6172, 6325, 6215, 6138
6194, 6247, 6152, 6347
6137, 6155, 6226, 6195
6177, 6221, 6315, 6121
6164, 6150, 6215, 6148
6251, 6164, 6169, 6190
6228, 6233, 6142, 6196
6241, 6256, 6315, 6217
6165, 6206, 6131, 6238
6252, 6210, 6177, 6195
6274, 6353, 6171, 6191
6274, 6168, 6269, 6102
6193, 6187, 6271, 6178
6113, 6179, 6203, 6302
6305, 6225, 6305, 6190
6108, 6162, 6152, 6178
6209, 6314, 6270, 6169
6035, 6149, 6230, 6189
6145, 6292, 6113, 6137
6217, 6139, 6164, 6124
6164, 6225, 6243, 6265
6166, 6160, 6131, 6102
6158, 6213, 6341, 6134
6188, 6197, 6146, 6093
6244, 6164, 6276, 6130
6289, 6257, 6214, 6106
6208, 6051, 6175, 6210
6308, 6181, 6160, 5955
6217, 6235, 6243, 6228
6253, 6151, 6191, 6253
6216, 6228, 6241, 6243
6246, 6268, 6288, 6258
6170, 6217, 6084, 6012
6149, 6177, 6123, 6056
6171, 6280, 6222, 6299
6190, 6160, 6174, 6157
6196, 6216, 6156, 6108
6233, 6074, 6066, 6121
6191, 6244, 6052, 6298
6218, 6244, 6164, 6239
6218, 6183, 6106, 6166
6130, 6262, 6254, 6316
6222, 6167, 6009, 6159
6156, 6035, 6110, 6204
6176, 6139, 6199, 6069
6134, 6242, 6326, 6153
6221, 6213, 6150, 6034
6201, 6167, 6102, 6229
6209, 6177, 6345, 6261
6304, 6201, 6152, 6209
6289, 6219, 6274, 6163
6174, 6091, 6225, 6246
6209, 6368, 6219, 6167
6056, 6135, 6261, 6341
6210, 6294, 6237, 6148
6158, 6208, 6303, 6213
6159, 6255, 6130, 6297
6254, 6203, 6216, 6261
6265, 6272, 6172, 6235
6184, 6203, 6284, 6277
6351, 6288, 6274, 6274
6191, 6299, 6287, 6284
6239, 6159, 6290, 6319
6361, 6316, 6340, 6487
6475, 6332, 6383, 6302
6309, 6433, 6439, 6416
6313, 6237, 6280, 6284
6413, 6330, 6300, 6413
6432, 6395, 6328, 6291
6421, 6329, 6343, 6465
6287, 6463, 6557, 6404
6400, 6434, 6433, 6364
6440, 6381, 6364, 6400
6428, 6516, 6411, 6460
6647, 6508, 6471, 6568
6551, 6507, 6551, 6619
6504, 6541, 6586, 6519
6574, 6731, 6620, 6583
6626, 6774, 6725, 6570
6792, 6646, 6795, 6787
6924, 6830, 6975, 6996
7012, 7037, 7086, 7265
7190, 7160, 7231, 7278
7375, 7414, 7562, 7666
7646, 7782, 7848, 7984
8076, 8220, 8302, 8462
8719, 9157, 9185, 9491
9768, 9979, 10395, 10655
10992, 11398, 12112, 12546
13084, 13722, 14188, 15006
15898, 16889, 17835, 18859
20035, 21132, 22225, 23499
24331, 25350, 26292, 26770
27107, 26840, 26473, 26091
25366, 24791, 23762, 22993
22048, 20913, 20062, 18961
18031, 16827, 15799, 14930
13928, 13231, 12622, 11897
11378, 11111, 10429, 10035
9880, 9581, 9245, 8909
8725, 8453, 8229, 8265
8091, 7933, 7850, 7619
7672, 7404, 7392, 7330
7322, 7239, 7193, 7062
6999, 6963, 6863, 6869
6869, 6866, 6802, 6772
6838, 6767, 6636, 6693
6707, 6712, 6653, 6700
6703, 6512, 6699, 6554
6551, 6470, 6521, 6460
6429, 6526, 6480, 6469
6521, 6584, 6571, 6396
6434, 6378, 6407, 6453
6368, 6383, 6381, 6494
6291, 6295, 6354, 6417
6361, 6346, 6315, 6444
6292, 6237, 6374, 6478
6335, 6336, 6454, 6320
6303, 6364, 6381, 6393
6355, 6331, 6439, 6232
6286, 6371, 6372, 6365
6317, 6374, 6330, 6315
6337, 6319, 6270, 6316
6365, 6434, 6232, 6285
6246, 6279, 6328, 6333
6309, 6275, 6339, 6309
6328, 6335, 6266, 6236
6394, 6392, 6235, 6300
6284, 6211, 6180, 6415
6271, 6225, 6247, 6284
6308, 6358, 6152, 6328
6365, 6263, 6336, 6369
6225, 6314, 6281, 6208
6238, 6311, 6222, 6234
6309, 6381, 6304, 6401
6176, 6224, 6213, 6317
6348, 6421, 6304, 6209
6228, 6152, 6279, 6197
6237, 6313, 6284, 6204
6234, 6216, 6297, 6305
6299, 6219, 6117, 6246
6216, 6167, 6146, 6309
6221, 6236, 6234, 6245
6163, 6208, 6132, 6308
6341, 6202, 6224, 6188
6204, 6257, 6176, 6333
6112, 6166, 6202, 6205
6283, 6259, 6257, 6296
6113, 6222, 6209, 6229
6096, 6322, 6207, 6216
6271, 6173, 6257, 6271
6216, 6301, 6131, 6281
6346, 6228, 6229, 6239
6230, 6126, 6182, 6331
6194, 6286, 6196, 6259
6188, 6258, 6261, 6225
6179, 6199, 6299, 6053
6101, 6241, 6131, 6302
6284, 6216, 6236, 6103
6212, 6258, 6251, 6270
6105, 6179, 6178, 6245
6094, 6210, 6228, 6126
6288, 6173, 6166, 6159
6217, 6110, 6082, 6113
6312, 6322, 6153, 6216
6163, 6137, 6193, 6019
6118, 6262, 6171, 6240
6231, 6253, 6249, 6076
6216, 6124, 6162, 6151
6224, 6051, 6145, 6204
6134, 6135, 6193, 6177
6298, 6137, 6272, 6150
6088, 6240, 6189, 6163
6285, 6332, 6211, 6190
6097, 6271, 6182, 6153
6205, 6241, 6257, 6170
6170, 6197, 6316, 6180
6160, 6145, 6172, 6140
6109, 6091, 6187, 6219
6117, 6169, 6162, 6154
6076, 6175, 6264, 6223
6284, 6194, 6148, 6193
6162, 6156, 6138, 6201
6273, 6169, 6148, 6142
6185, 6241, 6171, 6155
6184, 6278, 6175, 6252
6168, 6278, 6200, 6268
6315, 6293, 6216, 6187
5971, 6171, 6207, 6248
6079, 6156, 6265, 6226
6212, 6145, 6180, 6310
6187, 6139, 6181, 6111
6091, 6044, 6046, 6169
6253, 6178, 6155, 6222
6242, 6177, 6146, 6242
6174, 6092, 6143, 6230
6186, 6139, 6215, 6329
6311, 6082, 6052, 6062
6204, 6223, 6255, 6286
6177, 6140, 6131, 6245
6200, 6262, 6215, 6244
6115, 6030, 6110, 6003
6063, 6282, 6146, 6124
6175, 6085, 6203, 6156
6246, 6337, 6180, 6237
6196, 6168, 6234, 6192
6148, 6123, 6223, 6163
6007, 6090, 6237, 6170
6199, 6162, 6170, 6246
6196, 6270, 6097, 6127
6180, 6228, 6169, 6094
6290, 6184, 6260, 6241
6232, 6245, 6111, 6229
6174, 6122, 6232, 6270
6206, 6294, 6222, 6284
6422, 6297, 6067, 6121
6211, 6067, 6217, 6198
6209, 6161, 6060, 6082
6203, 6248, 6226, 6267
6206, 6153, 6344, 6264
6266, 6272, 6369, 6197
6163, 6281, 6239, 6251
6184, 6256, 6304, 6380
6341, 6221, 6192, 6204
6285, 6311, 6202, 6237
6264, 6143, 6257, 6215
6248, 6280, 6226, 6213
6193, 6219, 6184, 6231
6187, 6352, 6250, 6254
6343, 6204, 6126, 6143
6302, 6349, 6344, 6312
6357, 6225, 6281, 6366
6448, 6357, 6286, 6415
6212, 6389, 6310, 6269
6354, 6432, 6329, 6437
6347, 6234, 6475, 6365
6361, 6419, 6457, 6421
6414, 6465, 6500, 6516
6504, 6439, 6470, 6572
6495, 6638, 6664, 6684
6628, 6719, 6749, 6824
6634, 6856, 7019, 7064
7163, 7089, 7191, 7187
7257, 7420, 7405, 7614
7779, 7874, 8189, 8050
8280, 8407, 8583, 8720
9019, 9303, 9724, 9964
10354, 10501, 10849, 11142
11560, 11857, 12389, 12571
12599, 12796, 12989, 12931
13019, 13074, 12740, 12502
12237, 12043, 11853, 11685
11436, 11146, 10861, 10706
10424, 10103, 9688, 9320
8994, 8904, 8643, 8371
8027, 8056, 7856, 7742
7514, 7474, 7211, 7218
7158, 7111, 6975, 7058
6862, 6833, 6777, 6707
6721, 6661, 6679, 6839
6708, 6517, 6598, 6662
6479, 6531, 6436, 6428
6365, 6464, 6433, 6548
6411, 6410, 6425, 6432
6371, 6495, 6310, 6382
6436, 6348, 6390, 6325
6281, 6336, 6293, 6374
6334, 6280, 6252, 6380
6366, 6320, 6246, 6251
6266, 6282, 6190, 6219
6307, 6269, 6276, 6268
6250, 6319, 6339, 6213
6375, 6261, 6278, 6330
6304, 6327, 6306, 6378
6219, 6308, 6257, 6139
6247, 6226, 6377, 6291
6222, 6219, 6263, 6256
6283, 6279, 6297, 6165
6128, 6325, 6291, 6263
6320, 6281, 6416, 6197
6236, 6405, 6232, 6241
6167, 6253, 6244, 6294
6198, 6328, 6317, 6321
6373, 6365, 6382, 6228
6313, 6349, 6315, 6180
6303, 6420, 6393, 6487
6565, 6466, 6283, 6383
6515, 6374, 6528, 6357
6535, 6412, 6383, 6576
6536, 6496, 6394, 6437
6567, 6562, 6579, 6625
6704, 6669, 6820, 6837
6906, 6915, 7052, 6999
7081, 7254, 7100, 7224
7335, 7486, 7497, 7633
7798, 7987, 8098, 8258
8419, 8630, 8750, 9014
9276, 9472, 9597, 9911
10215, 10557, 10485, 10716
10971, 10866, 10839, 10708
10868, 10731, 10589, 10450
10437, 10220, 10168, 9849
9796, 9637, 9573, 9370
9111, 8982, 8861, 8637
8310, 8081, 8004, 7822
7741, 7582, 7550, 7391
7431, 7316, 7148, 7018
6969
*END

*EOF